{
  "resourceType": "Bundle",
  "id": "8ef1d025-95df-35f0-6218-7b6774190dd1",
  "type": "transaction",
  "meta": {
    "lastUpdated": "2024-02-023T00:00:00Z",
    "profile": [
      "http://shinny.org/StructureDefinition/SHINNYBundleProfile"
    ]
  },
  "timestamp": "2024-02-023T00:00:00Z",
  "entry": [
    {
      "fullUrl": "98065610-3da2-1442-f01f-49fc5f30afcc",
      "resource" : {
        "resourceType" : "Patient",
        "id" : "98065610-3da2-1442-f01f-49fc5f30afcc",
        "meta": {
          "lastUpdated": "2024-02-023T00:00:00Z",
          "profile" : ["http://shinny.org/StructureDefinition/shinny-patient"]
        },
        "language" : "en",
        "extension" : [{
          "extension" : [{
              "url" : "ombCategory",
              "valueCoding" : {
              "system" : "urn:oid:2.16.840.1.113883.6.238",
              "code" : "2106-3",
              "display" : "White"
            }
            }
          ],
          "url" : "http://hl7.org/fhir/us/core/StructureDefinition/us-core-race"
        },
        {
          "extension" : [{
            "url" : "ombCategory",
            "valueCoding" : {
              "system" : "urn:oid:2.16.840.1.113883.6.238",
              "code" : "2135-2",
              "display" : "Hispanic or Latino"
            }
          }],
          "url" : "http://hl7.org/fhir/us/core/StructureDefinition/us-core-ethnicity"
        },
        {
          "url" : "http://hl7.org/fhir/us/core/StructureDefinition/us-core-birthsex",
          "valueCode" : "F"
        }],
        "identifier" : [
        {
          "type" : {
            "coding" : [{
              "system" : "http://terminology.hl7.org/CodeSystem/v2-0203",
              "code" : "MR"
            }]
          },
          "system" : "http://www.scn.gov/facility/CUMC",
          "value" : "11223344",
          "assigner" : {
            "reference" : "Organization/scn_coordination_platform"
          }
        },
        {
          "type" : {
            "coding" : [{
              "system" : "http://terminology.hl7.org/CodeSystem/v2-0203",
              "code" : "MA"
            }]
          },
          "system" : "http://www.medicaid.gov/",
          "value" : "AA12345C",
          "assigner" : {
            "reference" : "Organization/2.16.840.1.113883.3.249"
          }
        },
        {
            "type": {
              "coding": [
                {
                  "system": "http://terminology.hl7.org/CodeSystem/v2-0203",
                  "code": "SS",
                  "display": "Social Security Number"
                }
              ],
              "text": "Social Security Number"
            },
            "system": "http://hl7.org/fhir/sid/us-ssn",
            "value": "999-34-2964"
        }],
        "name" : [{
          "family" : "Doe",
          "given" : ["Jon"],
          "prefix": [
              "Mr.", "Dr.", "PhD", "CCNA"
          ],
          "suffix": [
              "Jr.", "III"
          ]
        }],
        "gender" : "female",
        "birthDate" : "1981-07-16",
        "address" : [{
          "text" : "115 Broadway\tApt2",
          "line" : ["115 Broadway",
          "Apt2"],
          "city" : "New York",
          "state" : "NY",
          "postalCode" : "10032"
        }],
        "telecom": [
          {
            "system": "phone",
            "value": "555-120-6047",
            "use": "home"
          }
        ],
        "communication" : [
          {
            "language" : {
              "coding" : [{
                "code" : "EN",
                "system": "urn:iso:std:iso:639"
              }]
            },
            "preferred" : true,
            "extension": [
              {
                "url": "http://shinny.org/fhir/StructureDefinition/fluency-level",
                "valueInteger": 7
              },
              {
                "url": "http://shinny.org/fhir/StructureDefinition/writing-level",
                "valueInteger": 7
              }
            ]
          }
        ]
      }
},
    {
      "fullUrl": "98065610-3da2-1442-f01f-49fc5f30afcc_467771000124109",
      "resource" : {
        "resourceType" : "Task",
        "id" : "SDOHCC-TaskReferralManagementOrderFulfillmentAcceptedExample",
        "meta" : {
          "profile" : ["http://hl7.org/fhir/us/sdoh-clinicalcare/StructureDefinition/SHINNYSDOHTaskForReferralManagement"]
        },
        "status" : "completed",
        "intent" : "order",
        "code" : {
          "coding" : [{
            "system" : "http://hl7.org/fhir/CodeSystem/task-code",
            "code" : "fulfill",
            "display" : "Fulfill the focal request"
          }]
        },
        "focus" : {
          "reference" : "ServiceRequest/98065610-3da2-1442-f01f-49fc5f30afcc_467771000124109"
        },
        "for" : {
          "reference" : "Patient/98065610-3da2-1442-f01f-49fc5f30afcc"
        },
        "authoredOn" : "2020-09-11T21:56:54.671Z",
        "requester" : {
          "reference" : "Practitioner/care_giver_bob_kelso"
        },
        "owner" : {
          "reference" : "Organization/cbo"
        },
        "restriction": {
          "repetitions": 0,
          "recipient": {
            "reference" : "Patient/98065610-3da2-1442-f01f-49fc5f30afcc"
          }
        },
        "output" : [{
          "type" : {
            "coding" : [{
              "system" : "http://hl7.org/fhir/us/sdoh-clinicalcare/CodeSystem/SDOHCC-CodeSystemTemporaryCodes",
              "code" : "resulting-activity",
              "display" : "Resulting Activity"
            }]
          },
          "valueReference" : {
            "reference" : "Procedure/32b7a1f2-47f6-4572-8082-cc7fbfbb37d8"
          }
        }]
      }
    },
    {
      "fullUrl": "urn:uuid:9cf94822-3fe7-e598-649e-52bf35f8a0dz",
      "resource": {
        "resourceType": "Encounter",
        "id": "9cf94822-3fe7-e598-649e-52bf35f8a0df",
        "meta": {
          "lastUpdated": "2024-02-023T00:00:00Z",
          "profile": [
            "http://shinny.org/StructureDefinition/shin-ny-encounter"
          ]
        },
        "class": {
          "system": "http://terminology.hl7.org/CodeSystem/v3-ActCode",
          "code": "FLD"
        },
        "status": "finished",
        "subject": {
          "reference": "Patient/urn:uuid:98065610-3da2-1442-f01f-49fc5f30afcc"
        }
      }
    },
    {
      "fullUrl": "98065610-3da2-1442-f01f-49fc5f30afcc_467771000124109",
      "resource" : {
        "resourceType": "ServiceRequest",
        "id": "98065610-3da2-1442-f01f-49fc5f30afcc_467771000124109",
        "meta": {
          "lastUpdated": "2024-02-023T00:00:00Z",
          "profile" : ["http://shinny.org/StructureDefinition/SHINNYSDOHServiceRequest"]
        },
        "status": "completed",
        "intent": "order",
        "category": [
          {
            "coding": [
              {
                "system": "http://snomed.info/sct",
                "code": "410606002",
                "display": "Social service procedure"
              }
            ]
          },
          {
            "coding": [
              {
                "system": "http://hl7.org/fhir/us/sdoh-clinicalcare/CodeSystem/SDOHCC-CodeSystemTemporaryCodes",
                "code": "food-insecurity",
                "display": "Food Insecurity"
              }
            ]
          }
        ],
        "code": {
          "coding": [
            {
              "system": "http://snomed.info/sct",
              "code": "464031000124101",
              "display": "Referral to food pantry program"
            }
          ]
        },
        "subject": {
          "reference": "Patient/98065610-3da2-1442-f01f-49fc5f30afcc"
        },
        "quantity": {
          "system": "http://unitsofmeasure.org",
          "code": "mo",
          "unit": "month",
          "comparator": "<=",
          "value": 6
        },
        "authoredOn": "2017-01-01T00:00:00.000Z",
        "requester": {
          "reference": "Organization/scn_coordination_platform"
        },
        "reasonReference": [
          {"reference": "Observation/ObservationResponseQuestion_3"},
          {"reference": "Observation/ObservationResponseQuestion_4"}
        ],
        "encounter": {
          "reference": "Encounter/urn:uuid:9cf94822-3fe7-e598-649e-52bf35f8a0df"
        },
        "requester": {"reference": "Practitioner/social_worker_espinoza"},
        "performer": [
          {"reference": "Organization/cbo"}
        ]
      }
    },
    {
      "fullUrl": "scn_coordination_platform",
      "resource" : {
        "resourceType" : "Organization",
        "id" : "scn_coordination_platform",
        "meta" : {
          "lastUpdated": "2024-02-023T00:00:00Z",
          "profile" : ["http://shinny.org/StructureDefinition/shin-ny-organization"]
        },
        "identifier" : [{
          "system" : "http://www.scn.gov/",
          "value" : "scn_coordination_platform_1"
        }],
        "active" : true,
        "type" : [{
          "coding" : [{
            "system" : "http://terminology.hl7.org/CodeSystem/organization-type",
            "code" : "other",
            "display" : "Other"
          }]
        }],
        "name" : "CareRidge"
      }
    },
    {
      "fullUrl": "cbo",
      "resource" : {
        "resourceType" : "Organization",
        "id" : "cbo",
        "meta" : {
          "lastUpdated": "2024-02-023T00:00:00Z",
          "profile" : ["http://shinny.org/StructureDefinition/shin-ny-organization"]
        },
        "identifier" : [{
          "system" : "http://www.cbo.gov/",
          "value" : "cbo_1"
        }],
        "active" : true,
        "type" : [{
          "coding" : [{
            "system" : "http://terminology.hl7.org/CodeSystem/organization-type",
            "code" : "cg",
            "display" : "Community Group"
          }]
        }],
        "name" : "CBO"
      }
    },
    {
      "fullUrl": "care_giver_bob_kelso",
      "resource": {
        "resourceType": "Practitioner",
        "id": "care_giver_bob_kelso",
        "meta" : {
          "lastUpdated": "2024-02-023T00:00:00Z",
          "profile" : ["http://hl7.org/fhir/us/core/StructureDefinition/us-core-practitioner"]
        },
        "name": [
          {
            "family": "Kelso",
            "given": [
              "Bob"
            ],
            "suffix": [
              "MD", "CDPAD"
            ],
            "text": "Bob Kelso MD"
          }
        ],
        "identifier" : [
        {
          "type" : {
            "coding" : [{
              "system" : "http://terminology.hl7.org/CodeSystem/v2-0203",
              "code" : "NPI"
            }]
          },
          "system" : "http://hl7.org/fhir/sid/us-npi",
          "value" : "123456789",
          "assigner" : {
            "reference" : "Organization/cbo"
          }
        }]
      }
    }
  ]
}